File: packages/dara-xrd/dara_xrd-1.1.1-py3-none-any.whl/dara/data/BGMN-Templates/Devices/RMS-D8-ADS-15-Glass-LynxEyeXE-bkgr.xy
4.000000 965
4.061255 960
4.122510 931
4.183764 880
4.245019 901
4.306274 912
4.367529 865
4.428783 868
4.490038 789
4.551293 783
4.612548 769
4.673802 773
4.735057 720
4.796312 782
4.857567 756
4.918822 726
4.980076 713
5.041331 679
5.102586 674
5.163841 618
5.225095 629
5.286350 662
5.347605 666
5.408860 649
5.470114 605
5.531369 597
5.592624 569
5.653879 534
5.715133 602
5.776388 563
5.837643 589
5.898898 558
5.960153 579
6.021407 630
6.082662 550
6.143917 524
6.205172 561
6.266426 564
6.327681 537
6.388936 542
6.450191 554
6.511445 564
6.572700 592
6.633955 547
6.695210 550
6.756465 574
6.817719 583
6.878974 528
6.940229 505
7.001484 530
7.062738 515
7.123993 532
7.185248 540
7.246503 525
7.307757 488
7.369012 563
7.430267 509
7.491522 523
7.552777 514
7.614031 504
7.675286 532
7.736541 549
7.797796 525
7.859050 531
7.920305 496
7.981560 497
8.042815 509
8.104069 558
8.165324 562
8.226579 559
8.287834 528
8.349089 573
8.410343 557
8.471598 529
8.532853 519
8.594108 537
8.655362 521
8.716617 486
8.777872 517
8.839127 525
8.900381 484
8.961636 488
9.022891 546
9.084146 533
9.145400 567
9.206655 533
9.267910 531
9.329165 525
9.390420 561
9.451674 522
9.512929 545
9.574184 512
9.635439 550
9.696693 551
9.757948 519
9.819203 532
9.880458 562
9.941712 570
10.003 538
10.0642 535
10.1255 551
10.1867 547
10.248 521
10.3092 557
10.3705 535
10.4318 559
10.493 598
10.5543 506
10.6155 526
10.6768 567
10.738 604
10.7993 574
10.8605 594
10.9218 542
10.983 577
11.0443 573
11.1056 553
11.1668 573
11.2281 589
11.2893 590
11.3506 551
11.4118 565
11.4731 543
11.5343 592
11.5956 581
11.6568 591
11.7181 583
11.7794 622
11.8406 603
11.9019 586
11.9631 615
12.0244 651
12.0856 585
12.1469 637
12.2081 633
12.2694 635
12.3306 612
12.3919 608
12.4532 611
12.5144 594
12.5757 632
12.6369 628
12.6982 665
12.7594 603
12.8207 674
12.8819 606
12.9432 616
13.0045 628
13.0657 628
13.127 621
13.1882 586
13.2495 657
13.3107 656
13.372 680
13.4332 651
13.4945 657
13.5557 644
13.617 613
13.6783 681
13.7395 659
13.8008 624
13.862 688
13.9233 660
13.9845 648
14.0458 647
14.107 683
14.1683 685
14.2295 660
14.2908 672
14.3521 691
14.4133 662
14.4746 706
14.5358 740
14.5971 674
14.6583 660
14.7196 685
14.7808 717
14.8421 680
14.9033 699
14.9646 662
15.0259 681
15.0871 709
15.1484 707
15.2096 686
15.2709 731
15.3321 738
15.3934 697
15.4546 736
15.5159 745
15.5772 734
15.6384 760
15.6997 755
15.7609 751
15.8222 766
15.8834 688
15.9447 729
16.0059 738
16.0672 761
16.1284 746
16.1897 754
16.251 747
16.3122 777
16.3735 793
16.4347 748
16.496 794
16.5572 784
16.6185 783
16.6797 793
16.741 791
16.8022 812
16.8635 821
16.9248 770
16.986 796
17.0473 837
17.1085 807
17.1698 830
17.231 869
17.2923 852
17.3535 892
17.4148 872
17.476 857
17.5373 858
17.5986 912
17.6598 908
17.7211 861
17.7823 939
17.8436 864
17.9048 910
17.9661 950
18.0273 909
18.0886 915
18.1499 952
18.2111 1001
18.2724 897
18.3336 939
18.3949 969
18.4561 940
18.5174 954
18.5786 907
18.6399 997
18.7011 1012
18.7624 1032
18.8237 999
18.8849 960
18.9462 927
19.0074 1049
19.0687 1059
19.1299 996
19.1912 1039
19.2524 1022
19.3137 1063
19.3749 1111
19.4362 1070
19.4975 1091
19.5587 1051
19.62 1071
19.6812 1107
19.7425 1094
19.8037 1079
19.865 1099
19.9262 1100
19.9875 1146
20.0487 1154
20.11 1096
20.1713 1145
20.2325 1161
20.2938 1143
20.355 1154
20.4163 1117
20.4775 1110
20.5388 1175
20.6 1174
20.6613 1212
20.7226 1182
20.7838 1171
20.8451 1215
20.9063 1226
20.9676 1191
21.0288 1257
21.0901 1265
21.1513 1225
21.2126 1262
21.2738 1326
21.3351 1265
21.3964 1252
21.4576 1274
21.5189 1345
21.5801 1314
21.6414 1250
21.7026 1323
21.7639 1267
21.8251 1337
21.8864 1335
21.9476 1328
22.0089 1347
22.0702 1289
22.1314 1356
22.1927 1339
22.2539 1342
22.3152 1386
22.3764 1340
22.4377 1367
22.4989 1405
22.5602 1364
22.6214 1421
22.6827 1377
22.744 1465
22.8052 1441
22.8665 1367
22.9277 1519
22.989 1394
23.0502 1425
23.1115 1485
23.1727 1471
23.234 1425
23.2953 1450
23.3565 1435
23.4178 1466
23.479 1479
23.5403 1495
23.6015 1519
23.6628 1532
23.724 1451
23.7853 1464
23.8465 1547
23.9078 1525
23.9691 1546
24.0303 1481
24.0916 1493
24.1528 1588
24.2141 1525
24.2753 1539
24.3366 1495
24.3978 1465
24.4591 1523
24.5203 1469
24.5816 1530
24.6429 1484
24.7041 1466
24.7654 1531
24.8266 1504
24.8879 1580
24.9491 1527
25.0104 1508
25.0716 1642
25.1329 1578
25.1942 1531
25.2554 1635
25.3167 1544
25.3779 1546
25.4392 1535
25.5004 1624
25.5617 1577
25.6229 1511
25.6842 1549
25.7454 1634
25.8067 1544
25.868 1542
25.9292 1532
25.9905 1578
26.0517 1579
26.113 1542
26.1742 1647
26.2355 1538
26.2967 1507
26.358 1582
26.4192 1526
26.4805 1569
26.5418 1641
26.603 1535
26.6643 1464
26.7255 1565
26.7868 1548
26.848 1486
26.9093 1579
26.9705 1583
27.0318 1503
27.093 1551
27.1543 1486
27.2156 1499
27.2768 1513
27.3381 1529
27.3993 1547
27.4606 1451
27.5218 1559
27.5831 1463
27.6443 1546
27.7056 1485
27.7669 1513
27.8281 1479
27.8894 1597
27.9506 1478
28.0119 1470
28.0731 1533
28.1344 1479
28.1956 1564
28.2569 1476
28.3181 1525
28.3794 1488
28.4407 1494
28.5019 1520
28.5632 1516
28.6244 1498
28.6857 1442
28.7469 1470
28.8082 1431
28.8694 1434
28.9307 1395
28.9919 1460
29.0532 1414
29.1145 1480
29.1757 1400
29.237 1347
29.2982 1468
29.3595 1412
29.4207 1439
29.482 1408
29.5432 1434
29.6045 1378
29.6657 1373
29.727 1429
29.7883 1389
29.8495 1362
29.9108 1350
29.972 1389
30.0333 1407
30.0945 1466
30.1558 1376
30.217 1389
30.2783 1366
30.3395 1410
30.4008 1319
30.4621 1334
30.5233 1286
30.5846 1344
30.6458 1321
30.7071 1305
30.7683 1347
30.8296 1377
30.8908 1264
30.9521 1315
31.0134 1263
31.0746 1284
31.1359 1314
31.1971 1347
31.2584 1248
31.3196 1276
31.3809 1289
31.4421 1298
31.5034 1255
31.5646 1267
31.6259 1255
31.6872 1231
31.7484 1228
31.8097 1283
31.8709 1272
31.9322 1261
31.9934 1260
32.0547 1288
32.1159 1260
32.1772 1219
32.2384 1186
32.2997 1162
32.361 1230
32.4222 1181
32.4835 1231
32.5447 1184
32.606 1198
32.6672 1210
32.7285 1198
32.7897 1186
32.851 1187
32.9123 1214
32.9735 1212
33.0348 1162
33.096 1172
33.1573 1197
33.2185 1208
33.2798 1097
33.341 1150
33.4023 1209
33.4635 1082
33.5248 1183
33.5861 1162
33.6473 1162
33.7086 1214
33.7698 1126
33.8311 1166
33.8923 1114
33.9536 1118
34.0148 1090
34.0761 1168
34.1373 1122
34.1986 1153
34.2599 1050
34.3211 1073
34.3824 1120
34.4436 1116
34.5049 1065
34.5661 1040
34.6274 1095
34.6886 1063
34.7499 1069
34.8111 1084
34.8724 1084
34.9337 1108
34.9949 1096
35.0562 1067
35.1174 1060
35.1787 1031
35.2399 1029
35.3012 1072
35.3624 1098
35.4237 983
35.485 1087
35.5462 1028
35.6075 1114
35.6687 1101
35.73 998
35.7912 1048
35.8525 1075
35.9137 1005
35.975 969
36.0362 976
36.0975 998
36.1588 995
36.22 1005
36.2813 945
36.3425 955
36.4038 975
36.465 940
36.5263 1008
36.5875 990
36.6488 982
36.71 974
36.7713 980
36.8326 1002
36.8938 1005
36.9551 997
37.0163 963
37.0776 932
37.1388 888
37.2001 897
37.2613 905
37.3226 936
37.3838 981
37.4451 965
37.5064 995
37.5676 906
37.6289 907
37.6901 942
37.7514 862
37.8126 910
37.8739 920
37.9351 904
37.9964 885
38.0577 891
38.1189 953
38.1802 913
38.2414 909
38.3027 896
38.3639 984
38.4252 892
38.4864 914
38.5477 901
38.6089 897
38.6702 871
38.7315 922
38.7927 896
38.854 903
38.9152 867
38.9765 851
39.0377 888
39.099 915
39.1602 887
39.2215 912
39.2827 877
39.344 844
39.4053 880
39.4665 906
39.5278 871
39.589 837
39.6503 825
39.7115 928
39.7728 892
39.834 875
39.8953 869
39.9565 888
40.0178 865
40.0791 894
40.1403 859
40.2016 847
40.2628 894
40.3241 854
40.3853 850
40.4466 861
40.5078 880
40.5691 952
40.6304 887
40.6916 871
40.7529 830
40.8141 899
40.8754 917
40.9366 893
40.9979 875
41.0591 901
41.1204 876
41.1816 881
41.2429 849
41.3042 891
41.3654 938
41.4267 862
41.4879 870
41.5492 878
41.6104 931
41.6717 894
41.7329 876
41.7942 908
41.8554 883
41.9167 918
41.978 918
42.0392 863
42.1005 928
42.1617 859
42.223 928
42.2842 941
42.3455 915
42.4067 855
42.468 895
42.5292 987
42.5905 931
42.6518 921
42.713 919
42.7743 872
42.8355 958
42.8968 921
42.958 919
43.0193 868
43.0805 914
43.1418 890
43.2031 928
43.2643 894
43.3256 884
43.3868 947
43.4481 903
43.5093 918
43.5706 901
43.6318 978
43.6931 921
43.7543 918
43.8156 951
43.8769 896
43.9381 981
43.9994 969
44.0606 946
44.1219 935
44.1831 962
44.2444 936
44.3056 943
44.3669 919
44.4281 890
44.4894 919
44.5507 866
44.6119 929
44.6732 909
44.7344 921
44.7957 947
44.8569 969
44.9182 910
44.9794 892
45.0407 934
45.1019 913
45.1632 894
45.2245 936
45.2857 975
45.347 940
45.4082 888
45.4695 857
45.5307 894
45.592 899
45.6532 926
45.7145 912
45.7758 882
45.837 913
45.8983 884
45.9595 892
46.0208 922
46.082 880
46.1433 966
46.2045 898
46.2658 919
46.327 876
46.3883 944
46.4496 883
46.5108 866
46.5721 882
46.6333 886
46.6946 909
46.7558 936
46.8171 960
46.8783 903
46.9396 952
47.0008 897
47.0621 881
47.1234 904
47.1846 879
47.2459 886
47.3071 900
47.3684 892
47.4296 890
47.4909 899
47.5521 883
47.6134 825
47.6746 830
47.7359 896
47.7972 948
47.8584 892
47.9197 847
47.9809 880
48.0422 871
48.1034 877
48.1647 869
48.2259 881
48.2872 842
48.3485 880
48.4097 908
48.471 883
48.5322 884
48.5935 882
48.6547 888
48.716 869
48.7772 852
48.8385 863
48.8997 850
48.961 831
49.0223 896
49.0835 831
49.1448 887
49.206 848
49.2673 887
49.3285 909
49.3898 883
49.451 939
49.5123 917
49.5735 867
49.6348 875
49.6961 880
49.7573 848
49.8186 909
49.8798 927
49.9411 898
50.0023 860
50.0636 948
50.1248 861
50.1861 850
50.2473 861
50.3086 891
50.3699 838
50.4311 892
50.4924 928
50.5536 936
50.6149 952
50.6761 869
50.7374 915
50.7986 867
50.8599 898
50.9212 930
50.9824 873
51.0437 881
51.1049 871
51.1662 864
51.2274 903
51.2887 839
51.3499 851
51.4112 873
51.4724 887
51.5337 844
51.595 883
51.6562 844
51.7175 918
51.7787 895
51.84 903
51.9012 877
51.9625 908
52.0237 911
52.085 891
52.1462 925
52.2075 862
52.2688 919
52.33 901
52.3913 899
52.4525 929
52.5138 974
52.575 922
52.6363 903
52.6975 847
52.7588 897
52.8201 929
52.8813 888
52.9426 925
53.0038 947
53.0651 936
53.1263 878
53.1876 909
53.2488 967
53.3101 902
53.3713 938
53.4326 929
53.4939 890
53.5551 925
53.6164 926
53.6776 889
53.7389 896
53.8001 909
53.8614 887
53.9226 891
53.9839 942
54.0451 955
54.1064 934
54.1677 907
54.2289 957
54.2902 887
54.3514 965
54.4127 934
54.4739 910
54.5352 960
54.5964 933
54.6577 890
54.7189 967
54.7802 968
54.8415 946
54.9027 936
54.964 986
55.0252 872
55.0865 926
55.1477 995
55.209 953
55.2702 891
55.3315 959
55.3927 933
55.454 959
55.5153 941
55.5765 933
55.6378 957
55.699 923
55.7603 947
55.8215 898
55.8828 904
55.944 917
56.0053 985
56.0666 915
56.1278 954
56.1891 946
56.2503 967
56.3116 1021
56.3728 936
56.4341 980
56.4953 968
56.5566 1018
56.6178 960
56.6791 957
56.7404 914
56.8016 962
56.8629 988
56.9241 962
56.9854 904
57.0466 926
57.1079 955
57.1691 990
57.2304 952
57.2916 925
57.3529 1067
57.4142 947
57.4754 963
57.5367 1020
57.5979 933
57.6592 952
57.7204 969
57.7817 964
57.8429 972
57.9042 981
57.9654 914
58.0267 981
58.088 944
58.1492 1003
58.2105 968
58.2717 980
58.333 985
58.3942 974
58.4555 937
58.5167 997
58.578 931
58.6393 960
58.7005 992
58.7618 947
58.823 978
58.8843 970
58.9455 925
59.0068 982
59.068 890
59.1293 1011
59.1905 998
59.2518 963
59.3131 944
59.3743 998
59.4356 941
59.4968 1048
59.5581 1036
59.6193 944
59.6806 982
59.7418 990
59.8031 1051
59.8643 1010
59.9256 975
59.9869 926
60.0481 996
60.1094 1010
60.1706 919
60.2319 980
60.2931 985
60.3544 972
60.4156 1035
60.4769 1021
60.5382 967
60.5994 986
60.6607 1022
60.7219 973
60.7832 990
60.8444 992
60.9057 1033
60.9669 1002
61.0282 980
61.0894 985
61.1507 1067
61.212 983
61.2732 936
61.3345 944
61.3957 1017
61.457 1023
61.5182 948
61.5795 937
61.6407 1010
61.702 945
61.7632 1041
61.8245 999
61.8858 985
61.947 962
62.0083 978
62.0695 988
62.1308 1023
62.192 1042
62.2533 915
62.3145 961
62.3758 976
62.437 1014
62.4983 984
62.5596 983
62.6208 981
62.6821 990
62.7433 1005
62.8046 998
62.8658 1021
62.9271 1021
62.9883 1049
63.0496 993
63.1109 1018
63.1721 1030
63.2334 1035
63.2946 1050
63.3559 963
63.4171 966
63.4784 1054
63.5396 974
63.6009 1060
63.6621 1012
63.7234 1036
63.7847 984
63.8459 1016
63.9072 1051
63.9684 990
64.0297 995
64.0909 972
64.1522 1040
64.2134 1033
64.2747 1040
64.3359 979
64.3972 1012
64.4585 1006
64.5197 1018
64.581 1029
64.6422 988
64.7035 1044
64.7647 1016
64.826 996
64.8872 982
64.9485 928
65.0097 1060
65.071 1038
65.1323 1016
65.1935 999
65.2548 1003
65.316 1005
65.3773 970
65.4385 985
65.4998 1050
65.561 970
65.6223 1006
65.6836 1040
65.7448 1032
65.8061 993
65.8673 1029
65.9286 1011
65.9898 1007
66.0511 1014
66.1123 1008
66.1736 956
66.2348 926
66.2961 973
66.3574 979
66.4186 991
66.4799 954
66.5411 984
66.6024 984
66.6636 978
66.7249 991
66.7861 1042
66.8474 1000
66.9086 975
66.9699 920
67.0312 950
67.0924 1029
67.1537 993
67.2149 931
67.2762 938
67.3374 983
67.3987 984
67.4599 1006
67.5212 967
67.5824 958
67.6437 964
67.705 964
67.7662 968
67.8275 965
67.8887 940
67.95 969
68.0112 965
68.0725 972
68.1337 1001
68.195 975
68.2563 959
68.3175 985
68.3788 960
68.44 962
68.5013 989
68.5625 1072
68.6238 959
68.685 950
68.7463 983
68.8075 963
68.8688 939
68.9301 995
68.9913 932
69.0526 970
69.1138 968
69.1751 994
69.2363 940
69.2976 956
69.3588 955
69.4201 938
69.4813 951
69.5426 926
69.6039 937
69.6651 965
69.7264 944
69.7876 985
69.8489 940
69.9101 996
69.9714 927
70.0326 951
70.0939 945
70.1551 990
70.2164 952
70.2777 945
70.3389 940
70.4002 938
70.4614 981
70.5227 994
70.5839 980
70.6452 965
70.7064 980
70.7677 922
70.829 925
70.8902 968
70.9515 977
71.0127 1005
71.074 1021
71.1352 983
71.1965 945
71.2577 877
71.319 929
71.3802 925
71.4415 923
71.5028 930
71.564 888
71.6253 921
71.6865 972
71.7478 930
71.809 911
71.8703 976
71.9315 994
71.9928 951
72.054 971
72.1153 999
72.1766 888
72.2378 960
72.2991 945
72.3603 978
72.4216 944
72.4828 940
72.5441 921
72.6053 964
72.6666 937
72.7279 890
72.7891 978
72.8504 952
72.9116 942
72.9729 967
73.0341 967
73.0954 925
73.1566 932
73.2179 963
73.2791 1000
73.3404 939
73.4017 914
73.4629 914
73.5242 826
73.5854 958
73.6467 965
73.7079 940
73.7692 946
73.8304 963
73.8917 981
73.9529 933
74.0142 928
74.0755 926
74.1367 896
74.198 963
74.2592 942
74.3205 882
74.3817 928
74.443 913
74.5042 896
74.5655 946
74.6267 960
74.688 898
74.7493 894
74.8105 889
74.8718 928
74.933 839
74.9943 955
75.0555 944
75.1168 913
75.178 904
75.2393 856
75.3006 906
75.3618 914
75.4231 917
75.4843 920
75.5456 906
75.6068 894
75.6681 958
75.7293 912
75.7906 938
75.8518 904
75.9131 862
75.9744 926
76.0356 882
76.0969 828
76.1581 960
76.2194 946
76.2806 862
76.3419 929
76.4031 920
76.4644 825
76.5256 949
76.5869 902
76.6482 859
76.7094 913
76.7707 891
76.8319 863
76.8932 881
76.9544 864
77.0157 904
77.0769 918
77.1382 918
77.1994 928
77.2607 964
77.322 846
77.3832 924
77.4445 916
77.5057 833
77.567 905
77.6282 941
77.6895 852
77.7507 888
77.812 894
77.8732 916
77.9345 891
77.9958 845
78.057 892
78.1183 901
78.1795 909
78.2408 838
78.302 865
78.3633 894
78.4245 913
78.4858 873
78.5471 834
78.6083 892
78.6696 816
78.7308 859
78.7921 829
78.8533 866
78.9146 802
78.9758 877
79.0371 854
79.0983 850
79.1596 890
79.2209 845
79.2821 858
79.3434 877
79.4046 836
79.4659 815
79.5271 883
79.5884 845
79.6496 870
79.7109 845
79.7721 836
79.8334 832
79.8947 837
79.9559 863
80.0172 882