File: packages/dara-xrd/dara_xrd-1.1.1-py3-none-any.whl/dara/data/BGMN-Templates/Devices/xpert-xcel-htk-ads-10.xy
7.28831 0.0917536
7.29048 0.0932508
7.29265 0.0947784
7.29481 0.096337
7.29698 0.0979275
7.29914 0.0995507
7.30131 0.101207
7.30347 0.102898
7.30564 0.104624
7.3078 0.106386
7.30997 0.108184
7.31213 0.110021
7.3143 0.111896
7.31646 0.11381
7.31863 0.115766
7.3208 0.117763
7.32296 0.119803
7.32513 0.121886
7.32729 0.124015
7.32946 0.12619
7.33162 0.128412
7.33379 0.130682
7.33595 0.133002
7.33812 0.135374
7.34028 0.137798
7.34245 0.140275
7.34461 0.142808
7.34678 0.145398
7.34895 0.148045
7.35111 0.150753
7.35328 0.153521
7.35544 0.156353
7.35761 0.15925
7.35977 0.162212
7.36194 0.165243
7.3641 0.168345
7.36627 0.171518
7.36843 0.174765
7.3706 0.178088
7.37276 0.18149
7.37493 0.184972
7.3771 0.188536
7.37926 0.192185
7.38143 0.195922
7.38359 0.199749
7.38576 0.203668
7.38792 0.207681
7.39009 0.211793
7.39225 0.216005
7.39442 0.220321
7.39658 0.224743
7.39875 0.229275
7.40091 0.233919
7.40308 0.238679
7.40525 0.24356
7.40741 0.248563
7.40958 0.253692
7.41174 0.258953
7.41391 0.264348
7.41607 0.269881
7.41824 0.275557
7.4204 0.28138
7.42257 0.287355
7.42473 0.293486
7.4269 0.299778
7.42906 0.306236
7.43123 0.312865
7.4334 0.31967
7.43556 0.326658
7.43773 0.333833
7.43989 0.341202
7.44206 0.348771
7.44422 0.356546
7.44639 0.364534
7.44855 0.372742
7.45072 0.381176
7.45288 0.389845
7.45505 0.398755
7.45721 0.407915
7.45938 0.417333
7.46155 0.427017
7.46371 0.436977
7.46588 0.447221
7.46804 0.457758
7.47021 0.4686
7.47237 0.479755
7.47454 0.491235
7.4767 0.503051
7.47887 0.515214
7.48103 0.527736
7.4832 0.540629
7.48536 0.553907
7.48753 0.567582
7.4897 0.581668
7.49186 0.59618
7.49403 0.611133
7.49619 0.626543
7.49836 0.642425
7.50052 0.658796
7.50269 0.675675
7.50485 0.693078
7.50702 0.711025
7.50918 0.729537
7.51135 0.748632
7.51351 0.768333
7.51568 0.788661
7.51785 0.809641
7.52001 0.831295
7.52218 0.853649
7.52434 0.876728
7.52651 0.90056
7.52867 0.925174
7.53084 0.950599
7.533 0.976864
7.53517 1.004
7.53733 1.03205
7.5395 1.06103
7.54166 1.09099
7.54383 1.12197
7.546 1.154
7.54816 1.18713
7.55033 1.22139
7.55249 1.25683
7.55466 1.29351
7.55682 1.33146
7.55899 1.37075
7.56116 1.4114
7.56332 1.4535
7.56549 1.49708
7.56765 1.54221
7.56982 1.58895
7.57198 1.63736
7.57415 1.68752
7.57632 1.73948
7.57848 1.79334
7.58065 1.84915
7.58281 1.907
7.58498 1.96697
7.58715 2.02914
7.58931 2.09362
7.59148 2.16048
7.59364 2.22983
7.59581 2.30176
7.59798 2.37638
7.60014 2.4538
7.60231 2.53414
7.60447 2.61751
7.60664 2.70403
7.60881 2.79383
7.61097 2.88704
7.61314 2.98381
7.6153 3.08426
7.61747 3.18856
7.61963 3.29685
7.6218 3.4093
7.62397 3.52606
7.62613 3.64731
7.6283 3.77322
7.63046 3.90398
7.63263 4.03977
7.6348 4.18079
7.63696 4.32724
7.63913 4.47932
7.64129 4.63724
7.64346 4.80122
7.64563 4.97149
7.64779 5.14826
7.64996 5.33178
7.65212 5.52228
7.65429 5.72001
7.65646 5.9252
7.65862 6.13811
7.66079 6.35899
7.66295 6.5881
7.66512 6.82569
7.66729 7.07201
7.66945 7.32732
7.67162 7.59188
7.67378 7.86594
7.67595 8.14974
7.67811 8.44352
7.68028 8.74752
7.68245 9.06197
7.68461 9.38706
7.68678 9.72303
7.68894 10.07
7.69111 10.4283
7.69328 10.7978
7.69544 11.1789
7.69761 11.5716
7.69977 11.9759
7.70194 12.392
7.70411 12.8198
7.70627 13.2592
7.70844 13.7104
7.7106 14.173
7.71277 14.6471
7.71494 15.1324
7.7171 15.6286
7.71927 16.1356
7.72143 16.6529
7.7236 17.1802
7.72576 17.7171
7.72793 18.2631
7.7301 18.8177
7.73226 19.3803
7.73443 19.9503
7.73659 20.5271
7.73876 21.11
7.74093 21.6985
7.74309 22.2918
7.74526 22.8892
7.74742 23.49
7.74959 24.0938
7.75176 24.6998
7.75392 25.3076
7.75609 25.9167
7.75825 26.5267
7.76042 27.1375
7.76259 27.7491
7.76475 28.3613
7.76692 28.9747
7.76908 29.5895
7.77125 30.2066
7.77342 30.8268
7.77558 31.4515
7.77775 32.0822
7.77991 32.7206
7.78208 33.369
7.78424 34.0299
7.78641 34.706
7.78858 35.4006
7.79074 36.1172
7.79291 36.8596
7.79507 37.632
7.79724 38.4389
7.79941 39.2849
7.80157 40.1749
7.80374 41.114
7.8059 42.1073
7.80807 43.16
7.81024 44.2769
7.8124 45.4628
7.81457 46.7221
7.81673 48.0587
7.8189 49.4756
7.82107 50.9753
7.82323 52.5588
7.8254 54.2263
7.82756 55.9761
7.82973 57.8055
7.83189 59.7096
7.83406 61.682
7.83623 63.7145
7.83839 65.7973
7.84056 67.9188
7.84272 70.0667
7.84489 72.2276
7.84706 74.3881
7.84922 76.5353
7.85139 78.6578
7.85355 80.7465
7.85572 82.7954
7.85789 84.8029
7.86005 86.7726
7.86222 88.7135
7.86438 90.6416
7.86655 92.5786
7.86872 94.5533
7.87088 96.5998
7.87305 98.7568
7.87521 101.066
7.87738 103.57
7.87955 106.309
7.88171 109.317
7.88388 112.621
7.88604 116.232
7.88821 120.147
7.89037 124.344
7.89254 128.778
7.89471 133.385
7.89687 138.087
7.89904 142.796
7.9012 147.424
7.90337 151.902
7.90554 156.189
7.9077 160.289
7.90987 164.261
7.91203 168.221
7.9142 172.34
7.91637 176.822
7.91853 181.882
7.9207 187.707
7.92286 194.411
7.92503 201.999
7.9272 210.335
7.92936 219.148
7.93153 228.071
7.93369 236.736
7.93586 244.896
7.93802 252.561
7.94019 260.063
7.94236 268.029
7.94452 277.219
7.94669 288.241
7.94885 301.246
7.95102 315.746
7.95319 330.745
7.95535 345.29
7.95752 359.271
7.95968 373.95
7.96185 391.624
7.96402 414.281
7.96618 441.926
7.96835 472.151
7.97051 502.337
7.97268 533.47
7.97485 571.097
7.97701 619.899
7.97918 676.151
7.98134 730.092
7.98351 781.365
7.98567 843.078
7.98784 914.746
7.99001 967.815
7.99217 990.651
7.99434 1000
7.9965 975.167
7.99867 899.914
8.00084 812.205
8.003 703.495
8.00517 565.875
8.00733 439.966
8.0095 325.054
8.01167 217.909
8.01383 137.454
8.016 87.0855
8.01816 57.5503
8.02033 40.0898
8.02249 29.356
8.02466 22.4371
8.02683 17.7671
8.02899 14.4815
8.03116 12.0851
8.03332 10.2821
8.03549 8.889
8.03766 7.78765
8.03982 6.89959
8.04199 6.17115
8.04415 5.56465
8.04632 5.05303
8.04849 4.61645
8.05065 4.24008
8.05282 3.91266
8.05498 3.62552
8.05715 3.37187
8.05932 3.14633
8.06148 2.9446
8.06365 2.7632
8.06581 2.59928
8.06798 2.45052
8.07015 2.31494
8.07231 2.19094
8.07448 2.07712
8.07664 1.97233
8.07881 1.87556
8.08097 1.78597
8.08314 1.70281
8.08531 1.62543
8.08747 1.55329
8.08964 1.48589
8.0918 1.42279
8.09397 1.36363
8.09614 1.30805
8.0983 1.25577
8.10047 1.20651
8.10263 1.16003
8.1048 1.11613
8.10697 1.0746
8.10913 1.03526
8.1113 0.997974
8.11346 0.962582
8.11563 0.928957
8.1178 0.89698
8.11996 0.866543
8.12213 0.837546
8.12429 0.809897
8.12646 0.783513
8.12862 0.758317
8.13079 0.734236
8.13296 0.711207
8.13512 0.689167
8.13729 0.668061
8.13945 0.647836
8.14162 0.628444
8.14379 0.60984
8.14595 0.591982
8.14812 0.57483
8.15028 0.558348
8.15245 0.542502
8.15462 0.52726
8.15678 0.512592
8.15895 0.498469
8.16111 0.484867
8.16328 0.471759
8.16545 0.459123
8.16761 0.446936
8.16978 0.435179
8.17194 0.423831
8.17411 0.412875
8.17628 0.402293
8.17844 0.392068
8.18061 0.382186
8.18277 0.372631
8.18494 0.36339
8.1871 0.35445
8.18927 0.345798
8.19144 0.337423
8.1936 0.329312
8.19577 0.321456
8.19793 0.313845
8.2001 0.306469
8.20227 0.299318
8.20443 0.292384
8.2066 0.28566
8.20876 0.279135
8.21093 0.272804
8.2131 0.26666
8.21526 0.260694
8.21743 0.254901
8.21959 0.249274
8.22176 0.243808
8.22393 0.238497
8.22609 0.233335
8.22826 0.228316
8.23042 0.223437
8.23259 0.218692
8.23475 0.214077
8.23692 0.209586
8.23909 0.205217
8.24125 0.200965
8.24342 0.196825
8.24558 0.192795
8.24775 0.188871
8.24992 0.185049
8.25208 0.181326
8.25425 0.177699
8.25641 0.174165
8.25858 0.17072
8.26075 0.167362
8.26291 0.164089
8.26508 0.160898
8.26724 0.157785
8.26941 0.15475
8.27158 0.151789
8.27374 0.1489
8.27591 0.146081
8.27807 0.14333
8.28024 0.140645
8.28241 0.138023
8.28457 0.135464
8.28674 0.132966
8.2889 0.130526
8.29107 0.128142
8.29323 0.125814
8.2954 0.12354
8.29757 0.121318
8.29973 0.119146
8.3019 0.117024
8.30406 0.11495
8.30623 0.112922
8.3084 0.11094
8.31056 0.109001
8.31273 0.107106
8.31489 0.105252
8.31706 0.103439
8.31923 0.101665
8.32139 0.0999302
8.32356 0.0982326
8.32572 0.0965713
8.32789 0.0949456
12.654 0.177627
12.6561 0.18344
12.6582 0.189491
12.6603 0.195791
12.6624 0.202351
12.6645 0.209185
12.6666 0.216306
12.6687 0.223729
12.6709 0.231469
12.673 0.239542
12.6751 0.247966
12.6772 0.256758
12.6793 0.265937
12.6814 0.275524
12.6835 0.285541
12.6856 0.29601
12.6877 0.306956
12.6899 0.318404
12.692 0.330382
12.6941 0.34292
12.6962 0.356047
12.6983 0.369798
12.7004 0.384206
12.7025 0.399311
12.7046 0.415151
12.7067 0.431768
12.7089 0.449209
12.711 0.467521
12.7131 0.486756
12.7152 0.506969
12.7173 0.528219
12.7194 0.550568
12.7215 0.574084
12.7236 0.598839
12.7257 0.624909
12.7279 0.652376
12.73 0.681331
12.7321 0.711865
12.7342 0.744082
12.7363 0.778089
12.7384 0.814005
12.7405 0.851953
12.7426 0.892069
12.7447 0.934497
12.7469 0.979393
12.749 1.02693
12.7511 1.07727
12.7532 1.13063
12.7553 1.18721
12.7574 1.24723
12.7595 1.31094
12.7616 1.37859
12.7637 1.45048
12.7659 1.5269
12.768 1.60819
12.7701 1.6947
12.7722 1.78681
12.7743 1.88494
12.7764 1.98954
12.7785 2.10111
12.7806 2.22016
12.7827 2.34725
12.7849 2.48299
12.787 2.62805
12.7891 2.78312
12.7912 2.94899
12.7933 3.12649
12.7954 3.3165
12.7975 3.52001
12.7996 3.73804
12.8017 3.97173
12.8039 4.22228
12.806 4.49098
12.8081 4.77923
12.8102 5.08851
12.8123 5.42042
12.8144 5.77666
12.8165 6.15903
12.8186 6.56944
12.8207 7.00992
12.8229 7.48261
12.825 7.98972
12.8271 8.53359
12.8292 9.11661
12.8313 9.74126
12.8334 10.4101
12.8355 11.1255
12.8376 11.8902
12.8398 12.7065
12.8419 13.5769
12.844 14.5034
12.8461 15.4882
12.8482 16.5329
12.8503 17.6388
12.8524 18.8068
12.8545 20.0373
12.8566 21.33
12.8588 22.6841
12.8609 24.098
12.863 25.5692
12.8651 27.0948
12.8672 28.6709
12.8693 30.2933
12.8714 31.9573
12.8735 33.6581
12.8756 35.3912
12.8778 37.1527
12.8799 38.94
12.882 40.752
12.8841 42.5904
12.8862 44.4601
12.8883 46.3695
12.8904 48.3318
12.8925 50.3654
12.8946 52.494
12.8968 54.7473
12.8989 57.1604
12.901 59.7734
12.9031 62.6306
12.9052 65.7782
12.9073 69.2625
12.9094 73.126
12.9115 77.4036
12.9137 82.1179
12.9158 87.274
12.9179 92.8546
12.92 98.8177
12.9221 105.096
12.9242 111.6
12.9263 118.232
12.9284 124.901
12.9305 131.546
12.9327 138.165
12.9348 144.836
12.9369 151.739
12.939 159.155
12.9411 167.439
12.9432 176.975
12.9453 188.09
12.9474 200.949
12.9495 215.462
12.9517 231.228
12.9538 247.614
12.9559 263.994
12.958 280.154
12.9601 296.7
12.9622 315.22
12.9643 337.933
12.9664 366.706
12.9686 401.756
12.9707 441.03
12.9728 481.636
12.9749 523.329
12.977 570.425
12.9791 627.494
12.9812 691.398
12.9833 753.085
12.9854 813.551
12.9876 883.773
12.9897 952.642
12.9918 989.629
12.9939 999.482
12.996 990.781
12.9981 932.461
13.0002 844.026
13.0023 749.517
13.0044 618.052
13.0066 481.005
13.0087 364.829
13.0108 251.861
13.0129 157.753
13.015 96.8834
13.0171 61.8173
13.0192 41.751
13.0213 29.7926
13.0234 22.2756
13.0256 17.2984
13.0277 13.8478
13.0298 11.3596
13.0319 9.50484
13.034 8.08311
13.0361 6.96722
13.0382 6.07357
13.0403 5.34548
13.0425 4.74339
13.0446 4.23905
13.0467 3.8118
13.0488 3.44626
13.0509 3.13077
13.053 2.85635
13.0551 2.61599
13.0572 2.40414
13.0593 2.21638
13.0615 2.0491
13.0636 1.89939
13.0657 1.76484
13.0678 1.64343
13.0699 1.5335
13.072 1.43363
13.0741 1.34262
13.0762 1.25947
13.0783 1.18328
13.0805 1.11331
13.0826 1.0489
13.0847 0.989481
13.0868 0.934561
13.0889 0.883702
13.091 0.836521
13.0931 0.792677
13.0952 0.751871
13.0974 0.713835
13.0995 0.678329
13.1016 0.645143
13.1037 0.614083
13.1058 0.584978
13.1079 0.557673
13.11 0.532029
13.1121 0.507917
13.1142 0.485224
13.1164 0.463846
13.1185 0.443686
13.1206 0.424658
13.1227 0.406684
13.1248 0.38969
13.1269 0.37361
13.129 0.358383
13.1311 0.343953
13.1332 0.330268
13.1354 0.317281
13.1375 0.304948
13.1396 0.293228
13.1417 0.282083
13.1438 0.271479
13.1459 0.261383
13.148 0.251766
13.1501 0.242599
13.1522 0.233858
13.1544 0.225516
13.1565 0.217553
13.1586 0.209946
19.7898 0.285872
19.7919 0.302296
19.7939 0.319901
19.796 0.338787
19.7981 0.359068
19.8002 0.380865
19.8022 0.404314
19.8043 0.429566
19.8064 0.456783
19.8084 0.486151
19.8105 0.517869
19.8126 0.552163
19.8147 0.58928
19.8167 0.629497
19.8188 0.673119
19.8209 0.72049
19.823 0.771988
19.825 0.828038
19.8271 0.889115
19.8292 0.955747
19.8312 1.02853
19.8333 1.10812
19.8354 1.19528
19.8375 1.29082
19.8395 1.3957
19.8416 1.51097
19.8437 1.63781
19.8458 1.77756
19.8478 1.93172
19.8499 2.10199
19.852 2.29026
19.854 2.4987
19.8561 2.7297
19.8582 2.98599
19.8603 3.27061
19.8623 3.58697
19.8644 3.9389
19.8665 4.33066
19.8686 4.76698
19.8706 5.2531
19.8727 5.79478
19.8748 6.39832
19.8768 7.07051
19.8789 7.81866
19.881 8.65046
19.8831 9.57389
19.8851 10.5971
19.8872 11.7279
19.8893 12.9738
19.8914 14.3414
19.8934 15.8363
19.8955 17.4621
19.8976 19.2202
19.8996 21.1095
19.9017 23.126
19.9038 25.2631
19.9059 27.5123
19.9079 29.8646
19.91 32.3122
19.9121 34.8522
19.9142 37.4893
19.9162 40.2409
19.9183 43.1401
19.9204 46.2394
19.9224 49.6121
19.9245 53.3501
19.9266 57.5588
19.9287 62.3456
19.9307 67.8038
19.9328 73.991
19.9349 80.9071
19.9369 88.4789
19.939 96.5628
19.9411 104.979
19.9432 113.58
19.9452 122.352
19.9473 131.504
19.9494 141.509
19.9515 153.041
19.9535 166.793
19.9556 183.202
19.9577 202.2
19.9597 223.177
19.9618 245.375
19.9639 268.709
19.966 294.549
19.968 325.594
19.9701 364.264
19.9722 410.302
19.9742 460.109
19.9763 510.444
19.9784 563.758
19.9805 625.992
19.9825 695.512
19.9846 762.278
19.9867 827.507
19.9888 902.49
19.9908 969.545
19.9929 997.401
19.995 998.891
19.997 973.401
19.9991 897.305
20.0012 806.605
20.0033 697.485
20.0053 554.538
20.0074 425.358
20.0095 308.012
20.0115 198.28
20.0136 119.214
20.0157 72.3177
20.0178 45.9918
20.0198 30.8955
20.0219 21.8126
20.024 16.0556
20.0261 12.2282
20.0281 9.57589
20.0302 7.67219
20.0323 6.26456
20.0343 5.1972
20.0364 4.37028
20.0385 3.7177
20.0406 3.19442
20.0426 2.76893
20.0447 2.41869
20.0468 2.12725
20.0489 1.8824
20.0509 1.6749
20.053 1.49767
20.0551 1.34525
20.0571 1.21331
20.0592 1.09843
20.0613 0.997877
20.0634 0.909426
29.8553 0.388113
29.8573 0.418426
29.8594 0.451725
29.8614 0.488364
29.8635 0.528749
29.8656 0.573342
29.8676 0.62267
29.8697 0.67734
29.8717 0.738047
29.8738 0.805594
29.8758 0.880907
29.8779 0.965056
29.8799 1.05928
29.882 1.16503
29.8841 1.284
29.8861 1.41813
29.8882 1.56975
29.8902 1.74155
29.8923 1.93673
29.8943 2.15903
29.8964 2.41289
29.8985 2.70357
29.9005 3.03731
29.9026 3.42151
29.9046 3.86498
29.9067 4.37821
29.9087 4.97367
29.9108 5.66622
29.9129 6.47348
29.9149 7.41633
29.917 8.51939
29.919 9.81149
29.9211 11.3261
29.9231 13.1017
29.9252 15.1815
29.9273 17.6132
29.9293 20.4479
29.9314 23.7374
29.9334 27.5317
29.9355 31.8738
29.9375 36.7952
29.9396 42.3108
29.9417 48.4178
29.9437 55.1002
29.9458 62.3437
29.9478 70.1686
29.9499 78.6744
29.9519 88.096
29.954 98.858
29.956 111.602
29.9581 127.153
29.9602 146.395
29.9622 170.023
29.9643 198.227
29.9663 230.504
29.9684 265.939
29.9704 304.185
29.9725 346.657
29.9746 396.385
29.9766 455.226
29.9787 520.114
29.9807 584.541
29.9828 648.359
29.9848 721.851
29.9869 806.96
29.9889 882.951
29.991 940.512
29.9931 988.399
29.9951 995.658
29.9972 959.625
29.9992 903.293
30.0013 795.311
30.0033 682.736
30.0054 545.122
30.0075 403.269
30.0095 288.276
30.0116 175.325
30.0136 96.7565
30.0157 55.2759
30.0177 34.2424
30.0198 22.9073
30.0219 16.286
30.0239 12.1252
30.026 9.34928
30.028 7.4067
30.0301 5.99461
30.0321 4.93625
30.0342 4.12299
30.0362 3.48504
30.0383 2.97587
30.0404 2.56347
30.0424 2.22519
30.0445 1.94464
30.0465 1.70971
30.0486 1.51129
30.0506 1.34242
30.0527 1.19771
30.0548 1.07294
30.0568 0.964732
30.0589 0.870413
30.0609 0.787814
41.8956 0.551537
41.8976 0.609892
41.8996 0.676104
41.9016 0.751465
41.9036 0.837516
41.9056 0.936104
41.9076 1.04945
41.9096 1.18026
41.9116 1.33178
41.9136 1.50801
41.9156 1.71385
41.9176 1.95531
41.9196 2.23988
41.9216 2.57684
41.9236 2.97782
41.9256 3.45746
41.9276 4.03424
41.9296 4.73163
41.9316 5.57959
41.9336 6.61646
41.9356 7.89153
41.9376 9.46823
41.9396 11.4283
41.9416 13.8768
41.9436 16.9482
41.9456 20.8129
41.9476 25.6837
41.9496 31.8198
41.9516 39.5254
41.9537 49.1378
41.9557 61.0013
41.9577 75.4242
41.9597 92.6351
41.9617 112.774
41.9637 135.981
41.9657 162.632
41.9677 193.631
41.9697 230.453
41.9717 274.425
41.9737 325.195
41.9757 379.843
41.9777 435.454
41.9797 494.449
41.9817 563.686
41.9837 642.303
41.9857 719.283
41.9877 797.436
41.9897 885.878
41.9917 953.371
41.9937 984.976
41.9957 999.493
41.9977 954.739
41.9997 880.822
42.0017 778.111
42.0037 642.13
42.0057 511.993
42.0077 363.681
42.0097 250.783
42.0117 139.78
42.0137 70.2619
42.0157 38.6267
42.0177 23.8159
42.0197 16.0238
42.0217 11.4644
42.0237 8.57043
42.0257 6.61863
42.0277 5.24046
42.0297 4.23216
42.0317 3.47326
42.0338 2.88882
42.0358 2.43009
42.0378 2.06421
42.0398 1.76836
42.0418 1.52628
42.0438 1.32613
42.0458 1.15913
42.0478 1.01863
55.9156 0.686408
55.9176 0.782916
55.9196 0.896934
55.9216 1.03239
55.9236 1.19425
55.9256 1.3889
55.9276 1.62452
55.9296 1.91175
55.9316 2.26456
55.9336 2.70135
55.9356 3.24672
55.9376 3.93374
55.9396 4.80734
55.9416 5.92911
55.9436 7.38411
55.9456 9.2907
55.9476 11.8143
55.9496 15.1863
55.9516 19.7287
55.9536 25.8829
55.9556 34.2356
55.9576 45.5227
55.9596 60.5701
55.9616 80.1166
55.9636 104.489
55.9656 133.266
55.9676 165.392
55.9696 200.233
55.9717 239.104
55.9737 285.027
55.9757 339.113
55.9777 397.222
55.9797 455.287
55.9817 519.713
55.9837 599.312
55.9857 684.65
55.9877 769.086
55.9897 863.686
55.9917 937.605
55.9937 983.658
55.9957 995.384
55.9977 947.647
55.9997 877.441
56.0017 767.683
56.0037 631.399
56.0057 491.712
56.0077 341.136
56.0097 223.686
56.0117 114.784
56.0137 50.7211
56.0157 25.8289
56.0177 15.3239
56.0197 10.0896
56.0217 7.1149
56.0237 5.2595
56.0257 4.02301
56.0277 3.15793
56.0297 2.52986
56.0317 2.0605
75.9325 1.4398
75.9345 1.73538
75.9365 2.11126
75.9385 2.59498
75.9406 3.22545
75.9426 4.05854
75.9446 5.17569
75.9466 6.69723
75.9486 8.80188
75.9506 11.7581
75.9526 15.9676
75.9546 22.021
75.9566 30.7459
75.9587 43.1869
75.9607 60.3778
75.9627 82.7562
75.9647 109.444
75.9667 138.584
75.9687 169.807
75.9707 206.243
75.9727 251.092
75.9748 301.58
75.9768 352.318
75.9788 407.446
75.9808 475.572
75.9828 549.902
75.9848 625.62
75.9868 720.607
75.9888 821.975
75.9908 908.982
75.9929 982.777
75.9949 999.839
75.9969 987.161
75.9989 909.855
76.0009 815.437
76.0029 682.46
76.0049 544.439
76.0069 383.013
76.0089 257.296
76.011 133.609
76.013 60.8453
76.015 30.7002
76.017 17.6403
76.019 11.1873
76.021 7.60801
76.023 5.44068
76.025 4.03951
89.934 1.43589
89.936 1.73331
89.938 2.11265
89.9401 2.60252
89.9421 3.24369
89.9441 4.09528
89.9461 5.24466
89.9481 6.82165
89.9501 9.02315
89.9522 12.15
89.9542 16.6623
89.9562 23.2523
89.9582 32.9159
89.9602 46.9354
89.9622 66.5708
89.9643 92.1938
89.9663 122.171
89.9683 153.4
89.9703 185.191
89.9723 222.1
89.9743 268.667
89.9764 321.403
89.9784 373.621
89.9804 430.743
89.9824 504.076
89.9844 587.273
89.9865 674.685
89.9885 780.2
89.9905 879.649
89.9925 951.2
89.9945 998.568
89.9965 979.703
89.9986 930.116
90.0006 828.584
90.0026 717.824
90.0046 570.139
90.0066 422.95
90.0086 278.588
90.0107 163.842
90.0127 75.4793
90.0147 36.2642
90.0167 20.1472
90.0187 12.5513
90.0207 8.45303
90.0228 6.00893
90.0248 4.44248
90.0268 3.38383
104.938 1.74466
104.94 2.13534
104.942 2.64311
104.944 3.31268
104.946 4.20927
104.948 5.43082
104.95 7.12571
104.952 9.52245
104.954 12.9765
104.956 18.0412
104.958 25.561
104.96 36.7539
104.962 53.1447
104.964 76.0358
104.966 105.237
104.968 138.003
104.97 171.238
104.972 206.909
104.974 251.59
104.976 306.29
104.978 362.412
104.98 417.679
104.982 486.296
104.984 572.838
104.986 663.287
104.988 765.512
104.991 873.732
104.993 945.232
104.995 993.072
104.997 986.841
104.999 933.298
105.001 845.019
105.003 725.636
105.005 590.762
105.007 430.507
105.009 299.688
105.011 172.684
105.013 87.3464
105.015 45.7573
105.017 26.192
105.019 16.2863
105.021 10.8128
105.023 7.55009
105.025 5.48248
105.027 4.10655
119.947 2.88927
119.949 3.71189
119.951 4.85639
119.953 6.48567
119.955 8.86279
119.957 12.4195
119.959 17.8669
119.961 26.3502
119.963 39.5681
119.965 59.523
119.967 87.2005
119.969 120.36
119.971 154.78
119.973 192.041
119.975 239.979
119.977 298.183
119.979 356.896
119.981 419.919
119.983 498.896
119.985 586.13
119.987 684.019
119.989 799.788
119.991 895.067
119.993 965.501
119.996 999.929
119.998 981.481
120 923.838
120.002 825.275
120.004 712.155
120.006 560.303
120.008 415.316
120.01 281.744
120.012 166.074
120.014 91.8742
120.016 51.8532
120.018 30.8803
120.02 19.4813
120.022 12.9374
120.024 8.97057
120.026 6.4464
120.028 4.77192
120.03 3.62109
120.032 2.80599
134.956 4.71001
134.958 6.28368
134.96 8.60104
134.962 12.1216
134.964 17.6408
134.966 26.5283
134.968 41.008
134.97 64.0582
134.972 97.6958
134.974 139.354
134.976 183.854
134.978 235.518
134.98 302.644
134.982 376.844
134.984 454.904
134.986 554.844
134.988 668.664
134.99 783.173
134.992 892.377
134.994 962.295
134.996 997.733
134.998 983.201
135 923.546
135.002 838.319
135.004 715.792
135.006 576.528
135.008 432.61
135.01 298.479
135.012 193.803
135.014 122.936
135.016 78.3839
135.018 51.018
135.02 34.113
135.023 23.4621
135.025 16.5793
135.027 12.011
135.029 8.89947
135.031 6.72806
135.033 5.17863
135.035 4.05042
135.037 3.21373
135.039 2.58286
135.041 2.09998
135.043 1.7253
135.045 1.43097
135.047 1.19712
135.049 1.00939
149.96 3.5545
149.962 4.63556
149.964 6.21829
149.966 8.64522
149.968 12.5815
149.97 19.3837
149.972 31.8198
149.974 54.6673
149.976 91.362
149.978 135.744
149.98 188.89
149.982 263.24
149.984 344.715
149.986 446.71
149.988 574.878
149.99 705.516
149.992 832.723
149.994 926.822
149.996 988.826
149.998 995.479
150 962.066
150.002 900.329
150.004 794.351
150.006 663.764
150.008 525.375
150.01 390.548
150.012 277.941
150.014 197.196
150.016 143.739
150.018 107.431
150.02 80.3512
150.022 59.0273
150.024 42.5666
150.026 30.4479
150.028 21.8524
150.03 15.8629
150.032 11.6964
150.034 8.77325
150.036 6.69387
150.038 5.19055
150.04 4.08539
150.042 3.25964
150.044 2.6331
150.046 2.1509
150.048 1.77488
150.05 1.47812
150.052 1.24131
150.054 1.05043
150.056 0.895152
150.058 0.797348